03  1   1   1
Liquid Pressure (MPa), (MPa)
Temperature (deg C), (deg C)
Saturation, (no dim)
0000000001   3.47546760    204.993900    1.00000000
0000000002   3.47572937    204.759475    1.00000000
0000000003   3.47785216    202.891219    1.00000000
0000000004   3.48227527    199.197393    1.00000000
0000000005   3.48910027    193.804824    1.00000000
0000000006   3.49809887    186.993038    1.00000000
0000000007   3.50887697    179.270704    1.00000000
0000000008   3.52106597    171.444696    1.00000000
0000000009   3.53437521    164.674660    1.00000000
0000000010   3.54851360    160.512009    1.00000000
0000000011   3.56307443    159.998094    1.00000000
0000000012   3.57780392    159.998841    1.00000000
0000000013   3.59259713    159.999614    1.00000000
0000000014   3.60000000    160.000000    1.00000000
0000000015   3.47502754    212.296247    1.00000000
0000000016   3.47528758    212.060245    1.00000000
0000000017   3.47739896    210.171696    1.00000000
0000000018   3.48182823    206.398762    1.00000000
0000000019   3.48870749    200.801899    1.00000000
0000000020   3.49778406    193.581788    1.00000000
0000000021   3.50863456    185.169272    1.00000000
0000000022   3.52087687    176.302560    1.00000000
0000000023   3.53422135    168.084829    1.00000000
0000000024   3.54839354    162.023360    1.00000000
0000000025   3.56300216    159.998227    1.00000000
0000000026   3.57776523    159.998839    1.00000000
0000000027   3.59258480    159.999613    1.00000000
0000000028   3.60000000    160.000000    1.00000000
0000000029   3.47156584    225.125691    1.00000000
0000000030   3.47180922    224.908327    1.00000000
0000000031   3.47380936    223.147969    1.00000000
0000000032   3.47826768    219.529041    1.00000000
0000000033   3.48560295    213.942154    1.00000000
0000000034   3.49533227    206.396840    1.00000000
0000000035   3.50678628    197.147076    1.00000000
0000000036   3.51947832    186.785299    1.00000000
0000000037   3.53312490    176.302501    1.00000000
0000000038   3.54752923    167.122865    1.00000000
0000000039   3.56243211    161.122138    1.00000000
0000000040   3.57746072    159.998879    1.00000000
0000000041   3.59248771    159.999608    1.00000000
0000000042   3.60000000    160.000000    1.00000000
0000000043   3.46484590    234.459300    1.00000000
0000000044   3.46502325    234.293929    1.00000000
0000000045   3.46655650    232.916008    1.00000000
0000000046   3.47079554    229.904138    1.00000000
0000000047   3.47929297    224.905306    1.00000000
0000000048   3.49059606    217.680741    1.00000000
0000000049   3.50339493    208.280081    1.00000000
0000000050   3.51703930    197.146485    1.00000000
0000000051   3.53130413    185.168607    1.00000000
0000000052   3.54612879    173.702483    1.00000000
0000000053   3.56142029    164.579117    1.00000000
0000000054   3.57690711    160.104691    1.00000000
0000000055   3.59231063    159.999605    1.00000000
0000000056   3.60000000    160.000000    1.00000000
0000000057   3.45532265    239.360715    1.00000000
0000000058   3.45529770    239.289786    1.00000000
0000000059   3.45532143    238.608016    1.00000000
0000000060   3.45799762    236.722098    1.00000000
0000000061   3.46936609    232.913000    1.00000000
0000000062   3.48382910    226.622353    1.00000000
0000000063   3.49890411    217.680083    1.00000000
0000000064   3.51398697    206.395490    1.00000000
0000000065   3.52912121    193.580260    1.00000000
0000000066   3.54449168    180.547181    1.00000000
0000000067   3.56021192    169.103087    1.00000000
0000000068   3.57618647    161.541736    1.00000000
0000000069   3.59208133    159.999680    1.00000000
0000000070   3.60000000    160.000000    1.00000000
0000000071   3.44439804    239.985110    1.00000000
0000000072   3.44388034    239.985014    1.00000000
0000000073   3.43991983    239.984081    1.00000000
0000000074   3.43526456    239.753553    1.00000000
0000000075   3.45542098    237.740965    1.00000000
0000000076   3.47584880    232.912609    1.00000000
0000000077   3.49412300    224.904147    1.00000000
0000000078   3.51090488    213.940096    1.00000000
0000000079   3.52697649    200.799459    1.00000000
0000000080   3.54290424    186.784995    1.00000000
0000000081   3.55902999    173.702742    1.00000000
0000000082   3.57542997    163.849370    1.00000000
0000000083   3.59183932    159.999818    1.00000000
0000000084   3.60000000    160.000000    1.00000000
0000000085   3.43572939    239.984596    1.00000000
0000000086   3.43447510    239.984478    1.00000000
0000000087   3.42332393    239.983433    1.00000000
0000000088   3.38608717    239.950863   0.991773897
0000000089   3.44004646    239.753637    1.00000000
0000000090   3.46927232    236.721686    1.00000000
0000000091   3.49045901    229.902723    1.00000000
0000000092   3.50851081    219.526460    1.00000000
0000000093   3.52526277    206.395539    1.00000000
0000000094   3.54160875    191.836091    1.00000000
0000000095   3.55804674    177.673156    1.00000000
0000000096   3.57477218    166.217987    1.00000000
0000000097   3.59161976    160.259785    1.00000000
0000000098   3.60000000    160.000094    1.00000000
0000000099   3.43507836    239.984534    1.00000000
0000000100   3.43456114    239.984486    1.00000000
0000000101   3.43064477    239.984119    1.00000000
0000000102   3.42648318    239.983730    1.00000000
0000000103   3.44786461    239.984474    1.00000000
0000000104   3.46976632    238.607746    1.00000000
0000000105   3.48941770    232.914537    1.00000000
0000000106   3.50731539    223.145081    1.00000000
0000000107   3.52421653    210.167927    1.00000000
0000000108   3.54074840    195.351216    1.00000000
0000000109   3.55736768    180.547376    1.00000000
0000000110   3.57430413    168.086036    1.00000000
0000000111   3.59145276    160.769546    1.00000000
0000000112   3.60000000    160.000278    1.00000000
0000000113   3.43654028    239.984671    1.00000000
0000000114   3.43645865    239.984664    1.00000000
0000000115   3.43613158    239.984633    1.00000000
0000000116   3.43920625    239.984922    1.00000000
0000000117   3.45340275    239.985728    1.00000000
0000000118   3.47132234    239.289650    1.00000000
0000000119   3.48947550    234.292478    1.00000000
0000000120   3.50693250    224.905309    1.00000000
0000000121   3.52376342    212.056208    1.00000000
0000000122   3.54033587    197.146413    1.00000000
0000000123   3.55702807    182.048139    1.00000000
0000000124   3.57406451    169.103544    1.00000000
0000000125   3.59136347    161.123446    1.00000000
0000000126   3.60000000    160.000405    1.00000000
0000000127   3.43676358    239.984692    1.00000000
0000000128   3.43673636    239.984690    1.00000000
0000000129   3.43684489    239.984700    1.00000000
0000000130   3.44065686    239.985058    1.00000000
0000000131   3.45411754    239.985860    1.00000000
0000000132   3.47154481    239.360625    1.00000000
0000000133   3.48949632    234.457787    1.00000000
0000000134   3.50689011    225.122569    1.00000000
0000000135   3.52370883    212.292084    1.00000000
0000000136   3.54028505    197.372420    1.00000000
0000000137   3.55698587    182.238613    1.00000000
0000000138   3.57403457    169.234569    1.00000000
0000000139   3.59135218    161.172265    1.00000000
0000000140   3.60000000    160.000423    1.00000000
