node, X coordinate (m), Y coordinate (m), Z coordinate (m), Liquid Pressure (MPa), Temperature (deg C), X Permeability (log m**2), Y Permeability (log m**2), Z Permeability (log m**2)
0000000001,   0.00000000 ,   0.00000000 ,   0.00000000 ,   10.6399514 ,   100.006350 ,  -15.0000000 ,  -15.0000000 ,  -15.0000000
0000000002,   1.00000000 ,   0.00000000 ,   0.00000000 ,   10.6300188 ,   100.006351 ,  -15.0000000 ,  -15.0000000 ,  -15.0000000
0000000003,   2.00000000 ,   0.00000000 ,   0.00000000 ,   10.6201743 ,   100.006254 ,  -15.0000000 ,  -15.0000000 ,  -15.0000000
0000000004,   3.00000000 ,   0.00000000 ,   0.00000000 ,   10.6104180 ,   100.006156 ,  -15.0000000 ,  -15.0000000 ,  -15.0000000
0000000005,   4.00000000 ,   0.00000000 ,   0.00000000 ,   10.6007507 ,   100.006059 ,  -15.0000000 ,  -15.0000000 ,  -15.0000000
0000000006,   5.00000000 ,   0.00000000 ,   0.00000000 ,   10.5911723 ,   100.005962 ,  -15.0000000 ,  -15.0000000 ,  -15.0000000
0000000007,   6.00000000 ,   0.00000000 ,   0.00000000 ,   10.5816818 ,   100.005866 ,  -15.0000000 ,  -15.0000000 ,  -15.0000000
0000000008,   7.00000000 ,   0.00000000 ,   0.00000000 ,   10.5722793 ,   100.005772 ,  -15.0000000 ,  -15.0000000 ,  -15.0000000
0000000009,   8.00000000 ,   0.00000000 ,   0.00000000 ,   10.5629651 ,   100.005678 ,  -15.0000000 ,  -15.0000000 ,  -15.0000000
0000000010,   9.00000000 ,   0.00000000 ,   0.00000000 ,   10.5537386 ,   100.005585 ,  -15.0000000 ,  -15.0000000 ,  -15.0000000
0000000011,   10.0000000 ,   0.00000000 ,   0.00000000 ,   10.5445996 ,   100.005493 ,  -15.0000000 ,  -15.0000000 ,  -15.0000000
0000000012,   11.0000000 ,   0.00000000 ,   0.00000000 ,   10.5355488 ,   100.005402 ,  -15.0000000 ,  -15.0000000 ,  -15.0000000
0000000013,   12.0000000 ,   0.00000000 ,   0.00000000 ,   10.5265856 ,   100.005311 ,  -15.0000000 ,  -15.0000000 ,  -15.0000000
0000000014,   13.0000000 ,   0.00000000 ,   0.00000000 ,   10.5177089 ,   100.005222 ,  -15.0000000 ,  -15.0000000 ,  -15.0000000
0000000015,   14.0000000 ,   0.00000000 ,   0.00000000 ,   10.5089183 ,   100.005133 ,  -15.0000000 ,  -15.0000000 ,  -15.0000000
0000000016,   15.0000000 ,   0.00000000 ,   0.00000000 ,   10.5002144 ,   100.005045 ,  -15.0000000 ,  -15.0000000 ,  -15.0000000
0000000017,   16.0000000 ,   0.00000000 ,   0.00000000 ,   10.4915967 ,   100.004959 ,  -15.0000000 ,  -15.0000000 ,  -15.0000000
0000000018,   17.0000000 ,   0.00000000 ,   0.00000000 ,   10.4830648 ,   100.004873 ,  -15.0000000 ,  -15.0000000 ,  -15.0000000
0000000019,   18.0000000 ,   0.00000000 ,   0.00000000 ,   10.4746185 ,   100.004787 ,  -15.0000000 ,  -15.0000000 ,  -15.0000000
0000000020,   19.0000000 ,   0.00000000 ,   0.00000000 ,   10.4662575 ,   100.004703 ,  -15.0000000 ,  -15.0000000 ,  -15.0000000
0000000021,   20.0000000 ,   0.00000000 ,   0.00000000 ,   10.4579815 ,   100.004620 ,  -15.0000000 ,  -15.0000000 ,  -15.0000000
0000000022,   21.0000000 ,   0.00000000 ,   0.00000000 ,   10.4497898 ,   100.004537 ,  -15.0000000 ,  -15.0000000 ,  -15.0000000
0000000023,   22.0000000 ,   0.00000000 ,   0.00000000 ,   10.4416818 ,   100.004455 ,  -15.0000000 ,  -15.0000000 ,  -15.0000000
0000000024,   23.0000000 ,   0.00000000 ,   0.00000000 ,   10.4336569 ,   100.004375 ,  -15.0000000 ,  -15.0000000 ,  -15.0000000
0000000025,   24.0000000 ,   0.00000000 ,   0.00000000 ,   10.4257146 ,   100.004294 ,  -15.0000000 ,  -15.0000000 ,  -15.0000000
0000000026,   25.0000000 ,   0.00000000 ,   0.00000000 ,   10.4178551 ,   100.004215 ,  -15.0000000 ,  -15.0000000 ,  -15.0000000
0000000027,   26.0000000 ,   0.00000000 ,   0.00000000 ,   10.4100785 ,   100.004137 ,  -15.0000000 ,  -15.0000000 ,  -15.0000000
0000000028,   27.0000000 ,   0.00000000 ,   0.00000000 ,   10.4023845 ,   100.004059 ,  -15.0000000 ,  -15.0000000 ,  -15.0000000
0000000029,   28.0000000 ,   0.00000000 ,   0.00000000 ,   10.3947724 ,   100.003983 ,  -15.0000000 ,  -15.0000000 ,  -15.0000000
0000000030,   29.0000000 ,   0.00000000 ,   0.00000000 ,   10.3872410 ,   100.003907 ,  -15.0000000 ,  -15.0000000 ,  -15.0000000
0000000031,   30.0000000 ,   0.00000000 ,   0.00000000 ,   10.3797896 ,   100.003831 ,  -15.0000000 ,  -15.0000000 ,  -15.0000000
0000000032,   31.0000000 ,   0.00000000 ,   0.00000000 ,   10.3724173 ,   100.003757 ,  -15.0000000 ,  -15.0000000 ,  -15.0000000
0000000033,   32.0000000 ,   0.00000000 ,   0.00000000 ,   10.3651238 ,   100.003684 ,  -15.0000000 ,  -15.0000000 ,  -15.0000000
0000000034,   33.0000000 ,   0.00000000 ,   0.00000000 ,   10.3579083 ,   100.003611 ,  -15.0000000 ,  -15.0000000 ,  -15.0000000
0000000035,   34.0000000 ,   0.00000000 ,   0.00000000 ,   10.3507700 ,   100.003539 ,  -15.0000000 ,  -15.0000000 ,  -15.0000000
0000000036,   35.0000000 ,   0.00000000 ,   0.00000000 ,   10.3437079 ,   100.003468 ,  -15.0000000 ,  -15.0000000 ,  -15.0000000
0000000037,   36.0000000 ,   0.00000000 ,   0.00000000 ,   10.3367212 ,   100.003397 ,  -15.0000000 ,  -15.0000000 ,  -15.0000000
0000000038,   37.0000000 ,   0.00000000 ,   0.00000000 ,   10.3298087 ,   100.003327 ,  -15.0000000 ,  -15.0000000 ,  -15.0000000
0000000039,   38.0000000 ,   0.00000000 ,   0.00000000 ,   10.3229698 ,   100.003259 ,  -15.0000000 ,  -15.0000000 ,  -15.0000000
0000000040,   39.0000000 ,   0.00000000 ,   0.00000000 ,   10.3162034 ,   100.003190 ,  -15.0000000 ,  -15.0000000 ,  -15.0000000
0000000041,   40.0000000 ,   0.00000000 ,   0.00000000 ,   10.3095088 ,   100.003123 ,  -15.0000000 ,  -15.0000000 ,  -15.0000000
0000000042,   41.0000000 ,   0.00000000 ,   0.00000000 ,   10.3028852 ,   100.003056 ,  -15.0000000 ,  -15.0000000 ,  -15.0000000
0000000043,   42.0000000 ,   0.00000000 ,   0.00000000 ,   10.2963316 ,   100.002990 ,  -15.0000000 ,  -15.0000000 ,  -15.0000000
0000000044,   43.0000000 ,   0.00000000 ,   0.00000000 ,   10.2898475 ,   100.002924 ,  -15.0000000 ,  -15.0000000 ,  -15.0000000
0000000045,   44.0000000 ,   0.00000000 ,   0.00000000 ,   10.2834320 ,   100.002860 ,  -15.0000000 ,  -15.0000000 ,  -15.0000000
0000000046,   45.0000000 ,   0.00000000 ,   0.00000000 ,   10.2770842 ,   100.002796 ,  -15.0000000 ,  -15.0000000 ,  -15.0000000
0000000047,   46.0000000 ,   0.00000000 ,   0.00000000 ,   10.2708030 ,   100.002732 ,  -15.0000000 ,  -15.0000000 ,  -15.0000000
0000000048,   47.0000000 ,   0.00000000 ,   0.00000000 ,   10.2645874 ,   100.002670 ,  -15.0000000 ,  -15.0000000 ,  -15.0000000
0000000049,   48.0000000 ,   0.00000000 ,   0.00000000 ,   10.2584360 ,   100.002608 ,  -15.0000000 ,  -15.0000000 ,  -15.0000000
0000000050,   49.0000000 ,   0.00000000 ,   0.00000000 ,   10.2523479 ,   100.002546 ,  -15.0000000 ,  -15.0000000 ,  -15.0000000
0000000051,   50.0000000 ,   0.00000000 ,   0.00000000 ,   10.2463222 ,   100.002485 ,  -15.0000000 ,  -15.0000000 ,  -15.0000000
0000000052,   51.0000000 ,   0.00000000 ,   0.00000000 ,   10.2403580 ,   100.002425 ,  -15.0000000 ,  -15.0000000 ,  -15.0000000
0000000053,   52.0000000 ,   0.00000000 ,   0.00000000 ,   10.2344545 ,   100.002366 ,  -15.0000000 ,  -15.0000000 ,  -15.0000000
0000000054,   53.0000000 ,   0.00000000 ,   0.00000000 ,   10.2286107 ,   100.002307 ,  -15.0000000 ,  -15.0000000 ,  -15.0000000
0000000055,   54.0000000 ,   0.00000000 ,   0.00000000 ,   10.2228257 ,   100.002248 ,  -15.0000000 ,  -15.0000000 ,  -15.0000000
0000000056,   55.0000000 ,   0.00000000 ,   0.00000000 ,   10.2170986 ,   100.002191 ,  -15.0000000 ,  -15.0000000 ,  -15.0000000
0000000057,   56.0000000 ,   0.00000000 ,   0.00000000 ,   10.2114280 ,   100.002134 ,  -15.0000000 ,  -15.0000000 ,  -15.0000000
0000000058,   57.0000000 ,   0.00000000 ,   0.00000000 ,   10.2058131 ,   100.002077 ,  -15.0000000 ,  -15.0000000 ,  -15.0000000
0000000059,   58.0000000 ,   0.00000000 ,   0.00000000 ,   10.2002524 ,   100.002021 ,  -15.0000000 ,  -15.0000000 ,  -15.0000000
0000000060,   59.0000000 ,   0.00000000 ,   0.00000000 ,   10.1947450 ,   100.001965 ,  -15.0000000 ,  -15.0000000 ,  -15.0000000
0000000061,   60.0000000 ,   0.00000000 ,   0.00000000 ,   10.1892896 ,   100.001910 ,  -15.0000000 ,  -15.0000000 ,  -15.0000000
0000000062,   61.0000000 ,   0.00000000 ,   0.00000000 ,   10.1838852 ,   100.001856 ,  -15.0000000 ,  -15.0000000 ,  -15.0000000
0000000063,   62.0000000 ,   0.00000000 ,   0.00000000 ,   10.1785306 ,   100.001802 ,  -15.0000000 ,  -15.0000000 ,  -15.0000000
0000000064,   63.0000000 ,   0.00000000 ,   0.00000000 ,   10.1732248 ,   100.001748 ,  -15.0000000 ,  -15.0000000 ,  -15.0000000
0000000065,   64.0000000 ,   0.00000000 ,   0.00000000 ,   10.1679667 ,   100.001695 ,  -15.0000000 ,  -15.0000000 ,  -15.0000000
0000000066,   65.0000000 ,   0.00000000 ,   0.00000000 ,   10.1627551 ,   100.001643 ,  -15.0000000 ,  -15.0000000 ,  -15.0000000
0000000067,   66.0000000 ,   0.00000000 ,   0.00000000 ,   10.1575889 ,   100.001590 ,  -15.0000000 ,  -15.0000000 ,  -15.0000000
0000000068,   67.0000000 ,   0.00000000 ,   0.00000000 ,   10.1524669 ,   100.001539 ,  -15.0000000 ,  -15.0000000 ,  -15.0000000
0000000069,   68.0000000 ,   0.00000000 ,   0.00000000 ,   10.1473878 ,   100.001487 ,  -15.0000000 ,  -15.0000000 ,  -15.0000000
0000000070,   69.0000000 ,   0.00000000 ,   0.00000000 ,   10.1423503 ,   100.001437 ,  -15.0000000 ,  -15.0000000 ,  -15.0000000
0000000071,   70.0000000 ,   0.00000000 ,   0.00000000 ,   10.1373534 ,   100.001386 ,  -15.0000000 ,  -15.0000000 ,  -15.0000000
0000000072,   71.0000000 ,   0.00000000 ,   0.00000000 ,   10.1323956 ,   100.001336 ,  -15.0000000 ,  -15.0000000 ,  -15.0000000
0000000073,   72.0000000 ,   0.00000000 ,   0.00000000 ,   10.1274757 ,   100.001287 ,  -15.0000000 ,  -15.0000000 ,  -15.0000000
0000000074,   73.0000000 ,   0.00000000 ,   0.00000000 ,   10.1225925 ,   100.001237 ,  -15.0000000 ,  -15.0000000 ,  -15.0000000
0000000075,   74.0000000 ,   0.00000000 ,   0.00000000 ,   10.1177448 ,   100.001188 ,  -15.0000000 ,  -15.0000000 ,  -15.0000000
0000000076,   75.0000000 ,   0.00000000 ,   0.00000000 ,   10.1129311 ,   100.001140 ,  -15.0000000 ,  -15.0000000 ,  -15.0000000
0000000077,   76.0000000 ,   0.00000000 ,   0.00000000 ,   10.1081504 ,   100.001092 ,  -15.0000000 ,  -15.0000000 ,  -15.0000000
0000000078,   77.0000000 ,   0.00000000 ,   0.00000000 ,   10.1034015 ,   100.001044 ,  -15.0000000 ,  -15.0000000 ,  -15.0000000
0000000079,   78.0000000 ,   0.00000000 ,   0.00000000 ,   10.0986832 ,   100.000996 ,  -15.0000000 ,  -15.0000000 ,  -15.0000000
0000000080,   79.0000000 ,   0.00000000 ,   0.00000000 ,   10.0939943 ,   100.000949 ,  -15.0000000 ,  -15.0000000 ,  -15.0000000
0000000081,   80.0000000 ,   0.00000000 ,   0.00000000 ,   10.0893336 ,   100.000902 ,  -15.0000000 ,  -15.0000000 ,  -15.0000000
0000000082,   81.0000000 ,   0.00000000 ,   0.00000000 ,   10.0846998 ,   100.000855 ,  -15.0000000 ,  -15.0000000 ,  -15.0000000
0000000083,   82.0000000 ,   0.00000000 ,   0.00000000 ,   10.0800917 ,   100.000809 ,  -15.0000000 ,  -15.0000000 ,  -15.0000000
0000000084,   83.0000000 ,   0.00000000 ,   0.00000000 ,   10.0755079 ,   100.000762 ,  -15.0000000 ,  -15.0000000 ,  -15.0000000
0000000085,   84.0000000 ,   0.00000000 ,   0.00000000 ,   10.0709472 ,   100.000716 ,  -15.0000000 ,  -15.0000000 ,  -15.0000000
0000000086,   85.0000000 ,   0.00000000 ,   0.00000000 ,   10.0664082 ,   100.000670 ,  -15.0000000 ,  -15.0000000 ,  -15.0000000
0000000087,   86.0000000 ,   0.00000000 ,   0.00000000 ,   10.0618895 ,   100.000625 ,  -15.0000000 ,  -15.0000000 ,  -15.0000000
0000000088,   87.0000000 ,   0.00000000 ,   0.00000000 ,   10.0573898 ,   100.000579 ,  -15.0000000 ,  -15.0000000 ,  -15.0000000
0000000089,   88.0000000 ,   0.00000000 ,   0.00000000 ,   10.0529076 ,   100.000534 ,  -15.0000000 ,  -15.0000000 ,  -15.0000000
0000000090,   89.0000000 ,   0.00000000 ,   0.00000000 ,   10.0484418 ,   100.000489 ,  -15.0000000 ,  -15.0000000 ,  -15.0000000
0000000091,   90.0000000 ,   0.00000000 ,   0.00000000 ,   10.0439908 ,   100.000444 ,  -15.0000000 ,  -15.0000000 ,  -15.0000000
0000000092,   91.0000000 ,   0.00000000 ,   0.00000000 ,   10.0395533 ,   100.000399 ,  -15.0000000 ,  -15.0000000 ,  -15.0000000
0000000093,   92.0000000 ,   0.00000000 ,   0.00000000 ,   10.0351279 ,   100.000355 ,  -15.0000000 ,  -15.0000000 ,  -15.0000000
0000000094,   93.0000000 ,   0.00000000 ,   0.00000000 ,   10.0307133 ,   100.000310 ,  -15.0000000 ,  -15.0000000 ,  -15.0000000
0000000095,   94.0000000 ,   0.00000000 ,   0.00000000 ,   10.0263081 ,   100.000266 ,  -15.0000000 ,  -15.0000000 ,  -15.0000000
0000000096,   95.0000000 ,   0.00000000 ,   0.00000000 ,   10.0219110 ,   100.000221 ,  -15.0000000 ,  -15.0000000 ,  -15.0000000
0000000097,   96.0000000 ,   0.00000000 ,   0.00000000 ,   10.0175206 ,   100.000177 ,  -15.0000000 ,  -15.0000000 ,  -15.0000000
0000000098,   97.0000000 ,   0.00000000 ,   0.00000000 ,   10.0131357 ,   100.000133 ,  -15.0000000 ,  -15.0000000 ,  -15.0000000
0000000099,   98.0000000 ,   0.00000000 ,   0.00000000 ,   10.0087548 ,   100.000089 ,  -15.0000000 ,  -15.0000000 ,  -15.0000000
0000000100,   99.0000000 ,   0.00000000 ,   0.00000000 ,   10.0043767 ,   100.000045 ,  -15.0000000 ,  -15.0000000 ,  -15.0000000
0000000101,   100.000000 ,   0.00000000 ,   0.00000000 ,   10.0000000 ,   100.000003 ,  -15.0000000 ,  -15.0000000 ,  -15.0000000
0000000102,   0.00000000 ,   1.00000000 ,   0.00000000 ,   10.6399500 ,   100.006350 ,  -15.0000000 ,  -15.0000000 ,  -15.0000000
0000000103,   1.00000000 ,   1.00000000 ,   0.00000000 ,   10.6300186 ,   100.006351 ,  -15.0000000 ,  -15.0000000 ,  -15.0000000
0000000104,   2.00000000 ,   1.00000000 ,   0.00000000 ,   10.6201748 ,   100.006254 ,  -15.0000000 ,  -15.0000000 ,  -15.0000000
0000000105,   3.00000000 ,   1.00000000 ,   0.00000000 ,   10.6104185 ,   100.006156 ,  -15.0000000 ,  -15.0000000 ,  -15.0000000
0000000106,   4.00000000 ,   1.00000000 ,   0.00000000 ,   10.6007505 ,   100.006059 ,  -15.0000000 ,  -15.0000000 ,  -15.0000000
0000000107,   5.00000000 ,   1.00000000 ,   0.00000000 ,   10.5911716 ,   100.005962 ,  -15.0000000 ,  -15.0000000 ,  -15.0000000
0000000108,   6.00000000 ,   1.00000000 ,   0.00000000 ,   10.5816809 ,   100.005866 ,  -15.0000000 ,  -15.0000000 ,  -15.0000000
0000000109,   7.00000000 ,   1.00000000 ,   0.00000000 ,   10.5722784 ,   100.005772 ,  -15.0000000 ,  -15.0000000 ,  -15.0000000
0000000110,   8.00000000 ,   1.00000000 ,   0.00000000 ,   10.5629647 ,   100.005678 ,  -15.0000000 ,  -15.0000000 ,  -15.0000000
0000000111,   9.00000000 ,   1.00000000 ,   0.00000000 ,   10.5537387 ,   100.005585 ,  -15.0000000 ,  -15.0000000 ,  -15.0000000
0000000112,   10.0000000 ,   1.00000000 ,   0.00000000 ,   10.5445999 ,   100.005493 ,  -15.0000000 ,  -15.0000000 ,  -15.0000000
0000000113,   11.0000000 ,   1.00000000 ,   0.00000000 ,   10.5355488 ,   100.005402 ,  -15.0000000 ,  -15.0000000 ,  -15.0000000
0000000114,   12.0000000 ,   1.00000000 ,   0.00000000 ,   10.5265853 ,   100.005311 ,  -15.0000000 ,  -15.0000000 ,  -15.0000000
0000000115,   13.0000000 ,   1.00000000 ,   0.00000000 ,   10.5177083 ,   100.005222 ,  -15.0000000 ,  -15.0000000 ,  -15.0000000
0000000116,   14.0000000 ,   1.00000000 ,   0.00000000 ,   10.5089175 ,   100.005133 ,  -15.0000000 ,  -15.0000000 ,  -15.0000000
0000000117,   15.0000000 ,   1.00000000 ,   0.00000000 ,   10.5002136 ,   100.005045 ,  -15.0000000 ,  -15.0000000 ,  -15.0000000
0000000118,   16.0000000 ,   1.00000000 ,   0.00000000 ,   10.4915962 ,   100.004959 ,  -15.0000000 ,  -15.0000000 ,  -15.0000000
0000000119,   17.0000000 ,   1.00000000 ,   0.00000000 ,   10.4830647 ,   100.004873 ,  -15.0000000 ,  -15.0000000 ,  -15.0000000
0000000120,   18.0000000 ,   1.00000000 ,   0.00000000 ,   10.4746185 ,   100.004787 ,  -15.0000000 ,  -15.0000000 ,  -15.0000000
0000000121,   19.0000000 ,   1.00000000 ,   0.00000000 ,   10.4662575 ,   100.004703 ,  -15.0000000 ,  -15.0000000 ,  -15.0000000
0000000122,   20.0000000 ,   1.00000000 ,   0.00000000 ,   10.4579812 ,   100.004620 ,  -15.0000000 ,  -15.0000000 ,  -15.0000000
0000000123,   21.0000000 ,   1.00000000 ,   0.00000000 ,   10.4497892 ,   100.004537 ,  -15.0000000 ,  -15.0000000 ,  -15.0000000
0000000124,   22.0000000 ,   1.00000000 ,   0.00000000 ,   10.4416811 ,   100.004455 ,  -15.0000000 ,  -15.0000000 ,  -15.0000000
0000000125,   23.0000000 ,   1.00000000 ,   0.00000000 ,   10.4336563 ,   100.004375 ,  -15.0000000 ,  -15.0000000 ,  -15.0000000
0000000126,   24.0000000 ,   1.00000000 ,   0.00000000 ,   10.4257142 ,   100.004294 ,  -15.0000000 ,  -15.0000000 ,  -15.0000000
0000000127,   25.0000000 ,   1.00000000 ,   0.00000000 ,   10.4178548 ,   100.004215 ,  -15.0000000 ,  -15.0000000 ,  -15.0000000
0000000128,   26.0000000 ,   1.00000000 ,   0.00000000 ,   10.4100781 ,   100.004137 ,  -15.0000000 ,  -15.0000000 ,  -15.0000000
0000000129,   27.0000000 ,   1.00000000 ,   0.00000000 ,   10.4023840 ,   100.004059 ,  -15.0000000 ,  -15.0000000 ,  -15.0000000
0000000130,   28.0000000 ,   1.00000000 ,   0.00000000 ,   10.3947719 ,   100.003983 ,  -15.0000000 ,  -15.0000000 ,  -15.0000000
0000000131,   29.0000000 ,   1.00000000 ,   0.00000000 ,   10.3872406 ,   100.003907 ,  -15.0000000 ,  -15.0000000 ,  -15.0000000
0000000132,   30.0000000 ,   1.00000000 ,   0.00000000 ,   10.3797892 ,   100.003831 ,  -15.0000000 ,  -15.0000000 ,  -15.0000000
0000000133,   31.0000000 ,   1.00000000 ,   0.00000000 ,   10.3724170 ,   100.003757 ,  -15.0000000 ,  -15.0000000 ,  -15.0000000
0000000134,   32.0000000 ,   1.00000000 ,   0.00000000 ,   10.3651234 ,   100.003684 ,  -15.0000000 ,  -15.0000000 ,  -15.0000000
0000000135,   33.0000000 ,   1.00000000 ,   0.00000000 ,   10.3579079 ,   100.003611 ,  -15.0000000 ,  -15.0000000 ,  -15.0000000
0000000136,   34.0000000 ,   1.00000000 ,   0.00000000 ,   10.3507696 ,   100.003539 ,  -15.0000000 ,  -15.0000000 ,  -15.0000000
0000000137,   35.0000000 ,   1.00000000 ,   0.00000000 ,   10.3437076 ,   100.003468 ,  -15.0000000 ,  -15.0000000 ,  -15.0000000
0000000138,   36.0000000 ,   1.00000000 ,   0.00000000 ,   10.3367209 ,   100.003397 ,  -15.0000000 ,  -15.0000000 ,  -15.0000000
0000000139,   37.0000000 ,   1.00000000 ,   0.00000000 ,   10.3298085 ,   100.003327 ,  -15.0000000 ,  -15.0000000 ,  -15.0000000
0000000140,   38.0000000 ,   1.00000000 ,   0.00000000 ,   10.3229695 ,   100.003259 ,  -15.0000000 ,  -15.0000000 ,  -15.0000000
0000000141,   39.0000000 ,   1.00000000 ,   0.00000000 ,   10.3162031 ,   100.003190 ,  -15.0000000 ,  -15.0000000 ,  -15.0000000
0000000142,   40.0000000 ,   1.00000000 ,   0.00000000 ,   10.3095084 ,   100.003123 ,  -15.0000000 ,  -15.0000000 ,  -15.0000000
0000000143,   41.0000000 ,   1.00000000 ,   0.00000000 ,   10.3028847 ,   100.003056 ,  -15.0000000 ,  -15.0000000 ,  -15.0000000
0000000144,   42.0000000 ,   1.00000000 ,   0.00000000 ,   10.2963312 ,   100.002990 ,  -15.0000000 ,  -15.0000000 ,  -15.0000000
0000000145,   43.0000000 ,   1.00000000 ,   0.00000000 ,   10.2898472 ,   100.002924 ,  -15.0000000 ,  -15.0000000 ,  -15.0000000
0000000146,   44.0000000 ,   1.00000000 ,   0.00000000 ,   10.2834317 ,   100.002860 ,  -15.0000000 ,  -15.0000000 ,  -15.0000000
0000000147,   45.0000000 ,   1.00000000 ,   0.00000000 ,   10.2770840 ,   100.002796 ,  -15.0000000 ,  -15.0000000 ,  -15.0000000
0000000148,   46.0000000 ,   1.00000000 ,   0.00000000 ,   10.2708028 ,   100.002732 ,  -15.0000000 ,  -15.0000000 ,  -15.0000000
0000000149,   47.0000000 ,   1.00000000 ,   0.00000000 ,   10.2645872 ,   100.002670 ,  -15.0000000 ,  -15.0000000 ,  -15.0000000
0000000150,   48.0000000 ,   1.00000000 ,   0.00000000 ,   10.2584358 ,   100.002608 ,  -15.0000000 ,  -15.0000000 ,  -15.0000000
0000000151,   49.0000000 ,   1.00000000 ,   0.00000000 ,   10.2523476 ,   100.002546 ,  -15.0000000 ,  -15.0000000 ,  -15.0000000
0000000152,   50.0000000 ,   1.00000000 ,   0.00000000 ,   10.2463219 ,   100.002485 ,  -15.0000000 ,  -15.0000000 ,  -15.0000000
0000000153,   51.0000000 ,   1.00000000 ,   0.00000000 ,   10.2403576 ,   100.002425 ,  -15.0000000 ,  -15.0000000 ,  -15.0000000
0000000154,   52.0000000 ,   1.00000000 ,   0.00000000 ,   10.2344541 ,   100.002366 ,  -15.0000000 ,  -15.0000000 ,  -15.0000000
0000000155,   53.0000000 ,   1.00000000 ,   0.00000000 ,   10.2286104 ,   100.002307 ,  -15.0000000 ,  -15.0000000 ,  -15.0000000
0000000156,   54.0000000 ,   1.00000000 ,   0.00000000 ,   10.2228255 ,   100.002248 ,  -15.0000000 ,  -15.0000000 ,  -15.0000000
0000000157,   55.0000000 ,   1.00000000 ,   0.00000000 ,   10.2170983 ,   100.002191 ,  -15.0000000 ,  -15.0000000 ,  -15.0000000
0000000158,   56.0000000 ,   1.00000000 ,   0.00000000 ,   10.2114278 ,   100.002134 ,  -15.0000000 ,  -15.0000000 ,  -15.0000000
0000000159,   57.0000000 ,   1.00000000 ,   0.00000000 ,   10.2058128 ,   100.002077 ,  -15.0000000 ,  -15.0000000 ,  -15.0000000
0000000160,   58.0000000 ,   1.00000000 ,   0.00000000 ,   10.2002522 ,   100.002021 ,  -15.0000000 ,  -15.0000000 ,  -15.0000000
0000000161,   59.0000000 ,   1.00000000 ,   0.00000000 ,   10.1947447 ,   100.001965 ,  -15.0000000 ,  -15.0000000 ,  -15.0000000
0000000162,   60.0000000 ,   1.00000000 ,   0.00000000 ,   10.1892893 ,   100.001910 ,  -15.0000000 ,  -15.0000000 ,  -15.0000000
0000000163,   61.0000000 ,   1.00000000 ,   0.00000000 ,   10.1838849 ,   100.001856 ,  -15.0000000 ,  -15.0000000 ,  -15.0000000
0000000164,   62.0000000 ,   1.00000000 ,   0.00000000 ,   10.1785303 ,   100.001802 ,  -15.0000000 ,  -15.0000000 ,  -15.0000000
0000000165,   63.0000000 ,   1.00000000 ,   0.00000000 ,   10.1732245 ,   100.001748 ,  -15.0000000 ,  -15.0000000 ,  -15.0000000
0000000166,   64.0000000 ,   1.00000000 ,   0.00000000 ,   10.1679665 ,   100.001695 ,  -15.0000000 ,  -15.0000000 ,  -15.0000000
0000000167,   65.0000000 ,   1.00000000 ,   0.00000000 ,   10.1627549 ,   100.001643 ,  -15.0000000 ,  -15.0000000 ,  -15.0000000
0000000168,   66.0000000 ,   1.00000000 ,   0.00000000 ,   10.1575887 ,   100.001590 ,  -15.0000000 ,  -15.0000000 ,  -15.0000000
0000000169,   67.0000000 ,   1.00000000 ,   0.00000000 ,   10.1524667 ,   100.001539 ,  -15.0000000 ,  -15.0000000 ,  -15.0000000
0000000170,   68.0000000 ,   1.00000000 ,   0.00000000 ,   10.1473876 ,   100.001487 ,  -15.0000000 ,  -15.0000000 ,  -15.0000000
0000000171,   69.0000000 ,   1.00000000 ,   0.00000000 ,   10.1423502 ,   100.001437 ,  -15.0000000 ,  -15.0000000 ,  -15.0000000
0000000172,   70.0000000 ,   1.00000000 ,   0.00000000 ,   10.1373532 ,   100.001386 ,  -15.0000000 ,  -15.0000000 ,  -15.0000000
0000000173,   71.0000000 ,   1.00000000 ,   0.00000000 ,   10.1323954 ,   100.001336 ,  -15.0000000 ,  -15.0000000 ,  -15.0000000
0000000174,   72.0000000 ,   1.00000000 ,   0.00000000 ,   10.1274756 ,   100.001287 ,  -15.0000000 ,  -15.0000000 ,  -15.0000000
0000000175,   73.0000000 ,   1.00000000 ,   0.00000000 ,   10.1225924 ,   100.001237 ,  -15.0000000 ,  -15.0000000 ,  -15.0000000
0000000176,   74.0000000 ,   1.00000000 ,   0.00000000 ,   10.1177446 ,   100.001188 ,  -15.0000000 ,  -15.0000000 ,  -15.0000000
0000000177,   75.0000000 ,   1.00000000 ,   0.00000000 ,   10.1129309 ,   100.001140 ,  -15.0000000 ,  -15.0000000 ,  -15.0000000
0000000178,   76.0000000 ,   1.00000000 ,   0.00000000 ,   10.1081502 ,   100.001092 ,  -15.0000000 ,  -15.0000000 ,  -15.0000000
0000000179,   77.0000000 ,   1.00000000 ,   0.00000000 ,   10.1034013 ,   100.001044 ,  -15.0000000 ,  -15.0000000 ,  -15.0000000
0000000180,   78.0000000 ,   1.00000000 ,   0.00000000 ,   10.0986830 ,   100.000996 ,  -15.0000000 ,  -15.0000000 ,  -15.0000000
0000000181,   79.0000000 ,   1.00000000 ,   0.00000000 ,   10.0939941 ,   100.000949 ,  -15.0000000 ,  -15.0000000 ,  -15.0000000
0000000182,   80.0000000 ,   1.00000000 ,   0.00000000 ,   10.0893334 ,   100.000902 ,  -15.0000000 ,  -15.0000000 ,  -15.0000000
0000000183,   81.0000000 ,   1.00000000 ,   0.00000000 ,   10.0846997 ,   100.000855 ,  -15.0000000 ,  -15.0000000 ,  -15.0000000
0000000184,   82.0000000 ,   1.00000000 ,   0.00000000 ,   10.0800916 ,   100.000809 ,  -15.0000000 ,  -15.0000000 ,  -15.0000000
0000000185,   83.0000000 ,   1.00000000 ,   0.00000000 ,   10.0755078 ,   100.000762 ,  -15.0000000 ,  -15.0000000 ,  -15.0000000
0000000186,   84.0000000 ,   1.00000000 ,   0.00000000 ,   10.0709471 ,   100.000716 ,  -15.0000000 ,  -15.0000000 ,  -15.0000000
0000000187,   85.0000000 ,   1.00000000 ,   0.00000000 ,   10.0664081 ,   100.000670 ,  -15.0000000 ,  -15.0000000 ,  -15.0000000
0000000188,   86.0000000 ,   1.00000000 ,   0.00000000 ,   10.0618894 ,   100.000625 ,  -15.0000000 ,  -15.0000000 ,  -15.0000000
0000000189,   87.0000000 ,   1.00000000 ,   0.00000000 ,   10.0573897 ,   100.000579 ,  -15.0000000 ,  -15.0000000 ,  -15.0000000
0000000190,   88.0000000 ,   1.00000000 ,   0.00000000 ,   10.0529076 ,   100.000534 ,  -15.0000000 ,  -15.0000000 ,  -15.0000000
0000000191,   89.0000000 ,   1.00000000 ,   0.00000000 ,   10.0484417 ,   100.000489 ,  -15.0000000 ,  -15.0000000 ,  -15.0000000
0000000192,   90.0000000 ,   1.00000000 ,   0.00000000 ,   10.0439907 ,   100.000444 ,  -15.0000000 ,  -15.0000000 ,  -15.0000000
0000000193,   91.0000000 ,   1.00000000 ,   0.00000000 ,   10.0395532 ,   100.000399 ,  -15.0000000 ,  -15.0000000 ,  -15.0000000
0000000194,   92.0000000 ,   1.00000000 ,   0.00000000 ,   10.0351278 ,   100.000355 ,  -15.0000000 ,  -15.0000000 ,  -15.0000000
0000000195,   93.0000000 ,   1.00000000 ,   0.00000000 ,   10.0307132 ,   100.000310 ,  -15.0000000 ,  -15.0000000 ,  -15.0000000
0000000196,   94.0000000 ,   1.00000000 ,   0.00000000 ,   10.0263080 ,   100.000266 ,  -15.0000000 ,  -15.0000000 ,  -15.0000000
0000000197,   95.0000000 ,   1.00000000 ,   0.00000000 ,   10.0219109 ,   100.000221 ,  -15.0000000 ,  -15.0000000 ,  -15.0000000
0000000198,   96.0000000 ,   1.00000000 ,   0.00000000 ,   10.0175206 ,   100.000177 ,  -15.0000000 ,  -15.0000000 ,  -15.0000000
0000000199,   97.0000000 ,   1.00000000 ,   0.00000000 ,   10.0131356 ,   100.000133 ,  -15.0000000 ,  -15.0000000 ,  -15.0000000
0000000200,   98.0000000 ,   1.00000000 ,   0.00000000 ,   10.0087548 ,   100.000089 ,  -15.0000000 ,  -15.0000000 ,  -15.0000000
0000000201,   99.0000000 ,   1.00000000 ,   0.00000000 ,   10.0043767 ,   100.000045 ,  -15.0000000 ,  -15.0000000 ,  -15.0000000
0000000202,   100.000000 ,   1.00000000 ,   0.00000000 ,   10.0000000 ,   100.000003 ,  -15.0000000 ,  -15.0000000 ,  -15.0000000
0000000203,   0.00000000 ,   0.00000000 ,   1.00000000 ,   10.6399512 ,   100.006350 ,  -15.0000000 ,  -15.0000000 ,  -15.0000000
0000000204,   1.00000000 ,   0.00000000 ,   1.00000000 ,   10.6300182 ,   100.006351 ,  -15.0000000 ,  -15.0000000 ,  -15.0000000
0000000205,   2.00000000 ,   0.00000000 ,   1.00000000 ,   10.6201742 ,   100.006254 ,  -15.0000000 ,  -15.0000000 ,  -15.0000000
0000000206,   3.00000000 ,   0.00000000 ,   1.00000000 ,   10.6104173 ,   100.006156 ,  -15.0000000 ,  -15.0000000 ,  -15.0000000
0000000207,   4.00000000 ,   0.00000000 ,   1.00000000 ,   10.6007505 ,   100.006059 ,  -15.0000000 ,  -15.0000000 ,  -15.0000000
0000000208,   5.00000000 ,   0.00000000 ,   1.00000000 ,   10.5911725 ,   100.005962 ,  -15.0000000 ,  -15.0000000 ,  -15.0000000
0000000209,   6.00000000 ,   0.00000000 ,   1.00000000 ,   10.5816819 ,   100.005867 ,  -15.0000000 ,  -15.0000000 ,  -15.0000000
0000000210,   7.00000000 ,   0.00000000 ,   1.00000000 ,   10.5722791 ,   100.005772 ,  -15.0000000 ,  -15.0000000 ,  -15.0000000
0000000211,   8.00000000 ,   0.00000000 ,   1.00000000 ,   10.5629650 ,   100.005678 ,  -15.0000000 ,  -15.0000000 ,  -15.0000000
0000000212,   9.00000000 ,   0.00000000 ,   1.00000000 ,   10.5537382 ,   100.005585 ,  -15.0000000 ,  -15.0000000 ,  -15.0000000
0000000213,   10.0000000 ,   0.00000000 ,   1.00000000 ,   10.5445989 ,   100.005493 ,  -15.0000000 ,  -15.0000000 ,  -15.0000000
0000000214,   11.0000000 ,   0.00000000 ,   1.00000000 ,   10.5355485 ,   100.005402 ,  -15.0000000 ,  -15.0000000 ,  -15.0000000
0000000215,   12.0000000 ,   0.00000000 ,   1.00000000 ,   10.5265857 ,   100.005311 ,  -15.0000000 ,  -15.0000000 ,  -15.0000000
0000000216,   13.0000000 ,   0.00000000 ,   1.00000000 ,   10.5177088 ,   100.005222 ,  -15.0000000 ,  -15.0000000 ,  -15.0000000
0000000217,   14.0000000 ,   0.00000000 ,   1.00000000 ,   10.5089181 ,   100.005133 ,  -15.0000000 ,  -15.0000000 ,  -15.0000000
0000000218,   15.0000000 ,   0.00000000 ,   1.00000000 ,   10.5002142 ,   100.005045 ,  -15.0000000 ,  -15.0000000 ,  -15.0000000
0000000219,   16.0000000 ,   0.00000000 ,   1.00000000 ,   10.4915965 ,   100.004959 ,  -15.0000000 ,  -15.0000000 ,  -15.0000000
0000000220,   17.0000000 ,   0.00000000 ,   1.00000000 ,   10.4830643 ,   100.004873 ,  -15.0000000 ,  -15.0000000 ,  -15.0000000
0000000221,   18.0000000 ,   0.00000000 ,   1.00000000 ,   10.4746179 ,   100.004787 ,  -15.0000000 ,  -15.0000000 ,  -15.0000000
0000000222,   19.0000000 ,   0.00000000 ,   1.00000000 ,   10.4662571 ,   100.004703 ,  -15.0000000 ,  -15.0000000 ,  -15.0000000
0000000223,   20.0000000 ,   0.00000000 ,   1.00000000 ,   10.4579812 ,   100.004620 ,  -15.0000000 ,  -15.0000000 ,  -15.0000000
0000000224,   21.0000000 ,   0.00000000 ,   1.00000000 ,   10.4497897 ,   100.004537 ,  -15.0000000 ,  -15.0000000 ,  -15.0000000
0000000225,   22.0000000 ,   0.00000000 ,   1.00000000 ,   10.4416818 ,   100.004455 ,  -15.0000000 ,  -15.0000000 ,  -15.0000000
0000000226,   23.0000000 ,   0.00000000 ,   1.00000000 ,   10.4336567 ,   100.004375 ,  -15.0000000 ,  -15.0000000 ,  -15.0000000
0000000227,   24.0000000 ,   0.00000000 ,   1.00000000 ,   10.4257141 ,   100.004295 ,  -15.0000000 ,  -15.0000000 ,  -15.0000000
0000000228,   25.0000000 ,   0.00000000 ,   1.00000000 ,   10.4178544 ,   100.004215 ,  -15.0000000 ,  -15.0000000 ,  -15.0000000
0000000229,   26.0000000 ,   0.00000000 ,   1.00000000 ,   10.4100778 ,   100.004137 ,  -15.0000000 ,  -15.0000000 ,  -15.0000000
0000000230,   27.0000000 ,   0.00000000 ,   1.00000000 ,   10.4023839 ,   100.004059 ,  -15.0000000 ,  -15.0000000 ,  -15.0000000
0000000231,   28.0000000 ,   0.00000000 ,   1.00000000 ,   10.3947719 ,   100.003983 ,  -15.0000000 ,  -15.0000000 ,  -15.0000000
0000000232,   29.0000000 ,   0.00000000 ,   1.00000000 ,   10.3872406 ,   100.003907 ,  -15.0000000 ,  -15.0000000 ,  -15.0000000
0000000233,   30.0000000 ,   0.00000000 ,   1.00000000 ,   10.3797891 ,   100.003831 ,  -15.0000000 ,  -15.0000000 ,  -15.0000000
0000000234,   31.0000000 ,   0.00000000 ,   1.00000000 ,   10.3724167 ,   100.003757 ,  -15.0000000 ,  -15.0000000 ,  -15.0000000
0000000235,   32.0000000 ,   0.00000000 ,   1.00000000 ,   10.3651232 ,   100.003684 ,  -15.0000000 ,  -15.0000000 ,  -15.0000000
0000000236,   33.0000000 ,   0.00000000 ,   1.00000000 ,   10.3579078 ,   100.003611 ,  -15.0000000 ,  -15.0000000 ,  -15.0000000
0000000237,   34.0000000 ,   0.00000000 ,   1.00000000 ,   10.3507696 ,   100.003539 ,  -15.0000000 ,  -15.0000000 ,  -15.0000000
0000000238,   35.0000000 ,   0.00000000 ,   1.00000000 ,   10.3437075 ,   100.003468 ,  -15.0000000 ,  -15.0000000 ,  -15.0000000
0000000239,   36.0000000 ,   0.00000000 ,   1.00000000 ,   10.3367208 ,   100.003397 ,  -15.0000000 ,  -15.0000000 ,  -15.0000000
0000000240,   37.0000000 ,   0.00000000 ,   1.00000000 ,   10.3298084 ,   100.003328 ,  -15.0000000 ,  -15.0000000 ,  -15.0000000
0000000241,   38.0000000 ,   0.00000000 ,   1.00000000 ,   10.3229695 ,   100.003259 ,  -15.0000000 ,  -15.0000000 ,  -15.0000000
0000000242,   39.0000000 ,   0.00000000 ,   1.00000000 ,   10.3162032 ,   100.003190 ,  -15.0000000 ,  -15.0000000 ,  -15.0000000
0000000243,   40.0000000 ,   0.00000000 ,   1.00000000 ,   10.3095086 ,   100.003123 ,  -15.0000000 ,  -15.0000000 ,  -15.0000000
0000000244,   41.0000000 ,   0.00000000 ,   1.00000000 ,   10.3028849 ,   100.003056 ,  -15.0000000 ,  -15.0000000 ,  -15.0000000
0000000245,   42.0000000 ,   0.00000000 ,   1.00000000 ,   10.2963313 ,   100.002990 ,  -15.0000000 ,  -15.0000000 ,  -15.0000000
0000000246,   43.0000000 ,   0.00000000 ,   1.00000000 ,   10.2898471 ,   100.002925 ,  -15.0000000 ,  -15.0000000 ,  -15.0000000
0000000247,   44.0000000 ,   0.00000000 ,   1.00000000 ,   10.2834316 ,   100.002860 ,  -15.0000000 ,  -15.0000000 ,  -15.0000000
0000000248,   45.0000000 ,   0.00000000 ,   1.00000000 ,   10.2770839 ,   100.002796 ,  -15.0000000 ,  -15.0000000 ,  -15.0000000
0000000249,   46.0000000 ,   0.00000000 ,   1.00000000 ,   10.2708028 ,   100.002732 ,  -15.0000000 ,  -15.0000000 ,  -15.0000000
0000000250,   47.0000000 ,   0.00000000 ,   1.00000000 ,   10.2645871 ,   100.002670 ,  -15.0000000 ,  -15.0000000 ,  -15.0000000
0000000251,   48.0000000 ,   0.00000000 ,   1.00000000 ,   10.2584358 ,   100.002608 ,  -15.0000000 ,  -15.0000000 ,  -15.0000000
0000000252,   49.0000000 ,   0.00000000 ,   1.00000000 ,   10.2523477 ,   100.002546 ,  -15.0000000 ,  -15.0000000 ,  -15.0000000
0000000253,   50.0000000 ,   0.00000000 ,   1.00000000 ,   10.2463220 ,   100.002486 ,  -15.0000000 ,  -15.0000000 ,  -15.0000000
0000000254,   51.0000000 ,   0.00000000 ,   1.00000000 ,   10.2403577 ,   100.002425 ,  -15.0000000 ,  -15.0000000 ,  -15.0000000
0000000255,   52.0000000 ,   0.00000000 ,   1.00000000 ,   10.2344542 ,   100.002366 ,  -15.0000000 ,  -15.0000000 ,  -15.0000000
0000000256,   53.0000000 ,   0.00000000 ,   1.00000000 ,   10.2286104 ,   100.002307 ,  -15.0000000 ,  -15.0000000 ,  -15.0000000
0000000257,   54.0000000 ,   0.00000000 ,   1.00000000 ,   10.2228254 ,   100.002249 ,  -15.0000000 ,  -15.0000000 ,  -15.0000000
0000000258,   55.0000000 ,   0.00000000 ,   1.00000000 ,   10.2170982 ,   100.002191 ,  -15.0000000 ,  -15.0000000 ,  -15.0000000
0000000259,   56.0000000 ,   0.00000000 ,   1.00000000 ,   10.2114277 ,   100.002134 ,  -15.0000000 ,  -15.0000000 ,  -15.0000000
0000000260,   57.0000000 ,   0.00000000 ,   1.00000000 ,   10.2058127 ,   100.002077 ,  -15.0000000 ,  -15.0000000 ,  -15.0000000
0000000261,   58.0000000 ,   0.00000000 ,   1.00000000 ,   10.2002522 ,   100.002021 ,  -15.0000000 ,  -15.0000000 ,  -15.0000000
0000000262,   59.0000000 ,   0.00000000 ,   1.00000000 ,   10.1947448 ,   100.001965 ,  -15.0000000 ,  -15.0000000 ,  -15.0000000
0000000263,   60.0000000 ,   0.00000000 ,   1.00000000 ,   10.1892894 ,   100.001910 ,  -15.0000000 ,  -15.0000000 ,  -15.0000000
0000000264,   61.0000000 ,   0.00000000 ,   1.00000000 ,   10.1838849 ,   100.001856 ,  -15.0000000 ,  -15.0000000 ,  -15.0000000
0000000265,   62.0000000 ,   0.00000000 ,   1.00000000 ,   10.1785303 ,   100.001802 ,  -15.0000000 ,  -15.0000000 ,  -15.0000000
0000000266,   63.0000000 ,   0.00000000 ,   1.00000000 ,   10.1732245 ,   100.001748 ,  -15.0000000 ,  -15.0000000 ,  -15.0000000
0000000267,   64.0000000 ,   0.00000000 ,   1.00000000 ,   10.1679664 ,   100.001695 ,  -15.0000000 ,  -15.0000000 ,  -15.0000000
0000000268,   65.0000000 ,   0.00000000 ,   1.00000000 ,   10.1627548 ,   100.001643 ,  -15.0000000 ,  -15.0000000 ,  -15.0000000
0000000269,   66.0000000 ,   0.00000000 ,   1.00000000 ,   10.1575886 ,   100.001590 ,  -15.0000000 ,  -15.0000000 ,  -15.0000000
0000000270,   67.0000000 ,   0.00000000 ,   1.00000000 ,   10.1524666 ,   100.001539 ,  -15.0000000 ,  -15.0000000 ,  -15.0000000
0000000271,   68.0000000 ,   0.00000000 ,   1.00000000 ,   10.1473875 ,   100.001487 ,  -15.0000000 ,  -15.0000000 ,  -15.0000000
0000000272,   69.0000000 ,   0.00000000 ,   1.00000000 ,   10.1423501 ,   100.001437 ,  -15.0000000 ,  -15.0000000 ,  -15.0000000
0000000273,   70.0000000 ,   0.00000000 ,   1.00000000 ,   10.1373531 ,   100.001386 ,  -15.0000000 ,  -15.0000000 ,  -15.0000000
0000000274,   71.0000000 ,   0.00000000 ,   1.00000000 ,   10.1323954 ,   100.001336 ,  -15.0000000 ,  -15.0000000 ,  -15.0000000
0000000275,   72.0000000 ,   0.00000000 ,   1.00000000 ,   10.1274755 ,   100.001287 ,  -15.0000000 ,  -15.0000000 ,  -15.0000000
0000000276,   73.0000000 ,   0.00000000 ,   1.00000000 ,   10.1225923 ,   100.001237 ,  -15.0000000 ,  -15.0000000 ,  -15.0000000
0000000277,   74.0000000 ,   0.00000000 ,   1.00000000 ,   10.1177445 ,   100.001188 ,  -15.0000000 ,  -15.0000000 ,  -15.0000000
0000000278,   75.0000000 ,   0.00000000 ,   1.00000000 ,   10.1129309 ,   100.001140 ,  -15.0000000 ,  -15.0000000 ,  -15.0000000
0000000279,   76.0000000 ,   0.00000000 ,   1.00000000 ,   10.1081502 ,   100.001092 ,  -15.0000000 ,  -15.0000000 ,  -15.0000000
0000000280,   77.0000000 ,   0.00000000 ,   1.00000000 ,   10.1034013 ,   100.001044 ,  -15.0000000 ,  -15.0000000 ,  -15.0000000
0000000281,   78.0000000 ,   0.00000000 ,   1.00000000 ,   10.0986830 ,   100.000996 ,  -15.0000000 ,  -15.0000000 ,  -15.0000000
0000000282,   79.0000000 ,   0.00000000 ,   1.00000000 ,   10.0939941 ,   100.000949 ,  -15.0000000 ,  -15.0000000 ,  -15.0000000
0000000283,   80.0000000 ,   0.00000000 ,   1.00000000 ,   10.0893333 ,   100.000902 ,  -15.0000000 ,  -15.0000000 ,  -15.0000000
0000000284,   81.0000000 ,   0.00000000 ,   1.00000000 ,   10.0846996 ,   100.000855 ,  -15.0000000 ,  -15.0000000 ,  -15.0000000
0000000285,   82.0000000 ,   0.00000000 ,   1.00000000 ,   10.0800914 ,   100.000809 ,  -15.0000000 ,  -15.0000000 ,  -15.0000000
0000000286,   83.0000000 ,   0.00000000 ,   1.00000000 ,   10.0755077 ,   100.000762 ,  -15.0000000 ,  -15.0000000 ,  -15.0000000
0000000287,   84.0000000 ,   0.00000000 ,   1.00000000 ,   10.0709470 ,   100.000716 ,  -15.0000000 ,  -15.0000000 ,  -15.0000000
0000000288,   85.0000000 ,   0.00000000 ,   1.00000000 ,   10.0664080 ,   100.000670 ,  -15.0000000 ,  -15.0000000 ,  -15.0000000
0000000289,   86.0000000 ,   0.00000000 ,   1.00000000 ,   10.0618893 ,   100.000625 ,  -15.0000000 ,  -15.0000000 ,  -15.0000000
0000000290,   87.0000000 ,   0.00000000 ,   1.00000000 ,   10.0573896 ,   100.000579 ,  -15.0000000 ,  -15.0000000 ,  -15.0000000
0000000291,   88.0000000 ,   0.00000000 ,   1.00000000 ,   10.0529075 ,   100.000534 ,  -15.0000000 ,  -15.0000000 ,  -15.0000000
0000000292,   89.0000000 ,   0.00000000 ,   1.00000000 ,   10.0484417 ,   100.000489 ,  -15.0000000 ,  -15.0000000 ,  -15.0000000
0000000293,   90.0000000 ,   0.00000000 ,   1.00000000 ,   10.0439907 ,   100.000444 ,  -15.0000000 ,  -15.0000000 ,  -15.0000000
0000000294,   91.0000000 ,   0.00000000 ,   1.00000000 ,   10.0395532 ,   100.000399 ,  -15.0000000 ,  -15.0000000 ,  -15.0000000
0000000295,   92.0000000 ,   0.00000000 ,   1.00000000 ,   10.0351278 ,   100.000355 ,  -15.0000000 ,  -15.0000000 ,  -15.0000000
0000000296,   93.0000000 ,   0.00000000 ,   1.00000000 ,   10.0307132 ,   100.000310 ,  -15.0000000 ,  -15.0000000 ,  -15.0000000
0000000297,   94.0000000 ,   0.00000000 ,   1.00000000 ,   10.0263080 ,   100.000266 ,  -15.0000000 ,  -15.0000000 ,  -15.0000000
0000000298,   95.0000000 ,   0.00000000 ,   1.00000000 ,   10.0219109 ,   100.000221 ,  -15.0000000 ,  -15.0000000 ,  -15.0000000
0000000299,   96.0000000 ,   0.00000000 ,   1.00000000 ,   10.0175206 ,   100.000177 ,  -15.0000000 ,  -15.0000000 ,  -15.0000000
0000000300,   97.0000000 ,   0.00000000 ,   1.00000000 ,   10.0131356 ,   100.000133 ,  -15.0000000 ,  -15.0000000 ,  -15.0000000
0000000301,   98.0000000 ,   0.00000000 ,   1.00000000 ,   10.0087547 ,   100.000089 ,  -15.0000000 ,  -15.0000000 ,  -15.0000000
0000000302,   99.0000000 ,   0.00000000 ,   1.00000000 ,   10.0043767 ,   100.000045 ,  -15.0000000 ,  -15.0000000 ,  -15.0000000
0000000303,   100.000000 ,   0.00000000 ,   1.00000000 ,   10.0000000 ,   100.000003 ,  -15.0000000 ,  -15.0000000 ,  -15.0000000
0000000304,   0.00000000 ,   1.00000000 ,   1.00000000 ,   10.6399507 ,   100.006350 ,  -15.0000000 ,  -15.0000000 ,  -15.0000000
0000000305,   1.00000000 ,   1.00000000 ,   1.00000000 ,   10.6300190 ,   100.006351 ,  -15.0000000 ,  -15.0000000 ,  -15.0000000
0000000306,   2.00000000 ,   1.00000000 ,   1.00000000 ,   10.6201751 ,   100.006254 ,  -15.0000000 ,  -15.0000000 ,  -15.0000000
0000000307,   3.00000000 ,   1.00000000 ,   1.00000000 ,   10.6104180 ,   100.006156 ,  -15.0000000 ,  -15.0000000 ,  -15.0000000
0000000308,   4.00000000 ,   1.00000000 ,   1.00000000 ,   10.6007505 ,   100.006059 ,  -15.0000000 ,  -15.0000000 ,  -15.0000000
0000000309,   5.00000000 ,   1.00000000 ,   1.00000000 ,   10.5911718 ,   100.005962 ,  -15.0000000 ,  -15.0000000 ,  -15.0000000
0000000310,   6.00000000 ,   1.00000000 ,   1.00000000 ,   10.5816809 ,   100.005866 ,  -15.0000000 ,  -15.0000000 ,  -15.0000000
0000000311,   7.00000000 ,   1.00000000 ,   1.00000000 ,   10.5722786 ,   100.005772 ,  -15.0000000 ,  -15.0000000 ,  -15.0000000
0000000312,   8.00000000 ,   1.00000000 ,   1.00000000 ,   10.5629651 ,   100.005678 ,  -15.0000000 ,  -15.0000000 ,  -15.0000000
0000000313,   9.00000000 ,   1.00000000 ,   1.00000000 ,   10.5537388 ,   100.005585 ,  -15.0000000 ,  -15.0000000 ,  -15.0000000
0000000314,   10.0000000 ,   1.00000000 ,   1.00000000 ,   10.5445996 ,   100.005493 ,  -15.0000000 ,  -15.0000000 ,  -15.0000000
0000000315,   11.0000000 ,   1.00000000 ,   1.00000000 ,   10.5355488 ,   100.005402 ,  -15.0000000 ,  -15.0000000 ,  -15.0000000
0000000316,   12.0000000 ,   1.00000000 ,   1.00000000 ,   10.5265855 ,   100.005311 ,  -15.0000000 ,  -15.0000000 ,  -15.0000000
0000000317,   13.0000000 ,   1.00000000 ,   1.00000000 ,   10.5177083 ,   100.005222 ,  -15.0000000 ,  -15.0000000 ,  -15.0000000
0000000318,   14.0000000 ,   1.00000000 ,   1.00000000 ,   10.5089175 ,   100.005133 ,  -15.0000000 ,  -15.0000000 ,  -15.0000000
0000000319,   15.0000000 ,   1.00000000 ,   1.00000000 ,   10.5002137 ,   100.005045 ,  -15.0000000 ,  -15.0000000 ,  -15.0000000
0000000320,   16.0000000 ,   1.00000000 ,   1.00000000 ,   10.4915964 ,   100.004959 ,  -15.0000000 ,  -15.0000000 ,  -15.0000000
0000000321,   17.0000000 ,   1.00000000 ,   1.00000000 ,   10.4830647 ,   100.004873 ,  -15.0000000 ,  -15.0000000 ,  -15.0000000
0000000322,   18.0000000 ,   1.00000000 ,   1.00000000 ,   10.4746185 ,   100.004787 ,  -15.0000000 ,  -15.0000000 ,  -15.0000000
0000000323,   19.0000000 ,   1.00000000 ,   1.00000000 ,   10.4662574 ,   100.004703 ,  -15.0000000 ,  -15.0000000 ,  -15.0000000
0000000324,   20.0000000 ,   1.00000000 ,   1.00000000 ,   10.4579811 ,   100.004620 ,  -15.0000000 ,  -15.0000000 ,  -15.0000000
0000000325,   21.0000000 ,   1.00000000 ,   1.00000000 ,   10.4497892 ,   100.004537 ,  -15.0000000 ,  -15.0000000 ,  -15.0000000
0000000326,   22.0000000 ,   1.00000000 ,   1.00000000 ,   10.4416812 ,   100.004455 ,  -15.0000000 ,  -15.0000000 ,  -15.0000000
0000000327,   23.0000000 ,   1.00000000 ,   1.00000000 ,   10.4336563 ,   100.004375 ,  -15.0000000 ,  -15.0000000 ,  -15.0000000
0000000328,   24.0000000 ,   1.00000000 ,   1.00000000 ,   10.4257141 ,   100.004294 ,  -15.0000000 ,  -15.0000000 ,  -15.0000000
0000000329,   25.0000000 ,   1.00000000 ,   1.00000000 ,   10.4178546 ,   100.004215 ,  -15.0000000 ,  -15.0000000 ,  -15.0000000
0000000330,   26.0000000 ,   1.00000000 ,   1.00000000 ,   10.4100779 ,   100.004137 ,  -15.0000000 ,  -15.0000000 ,  -15.0000000
0000000331,   27.0000000 ,   1.00000000 ,   1.00000000 ,   10.4023839 ,   100.004059 ,  -15.0000000 ,  -15.0000000 ,  -15.0000000
0000000332,   28.0000000 ,   1.00000000 ,   1.00000000 ,   10.3947718 ,   100.003983 ,  -15.0000000 ,  -15.0000000 ,  -15.0000000
0000000333,   29.0000000 ,   1.00000000 ,   1.00000000 ,   10.3872406 ,   100.003907 ,  -15.0000000 ,  -15.0000000 ,  -15.0000000
0000000334,   30.0000000 ,   1.00000000 ,   1.00000000 ,   10.3797891 ,   100.003831 ,  -15.0000000 ,  -15.0000000 ,  -15.0000000
0000000335,   31.0000000 ,   1.00000000 ,   1.00000000 ,   10.3724168 ,   100.003757 ,  -15.0000000 ,  -15.0000000 ,  -15.0000000
0000000336,   32.0000000 ,   1.00000000 ,   1.00000000 ,   10.3651232 ,   100.003684 ,  -15.0000000 ,  -15.0000000 ,  -15.0000000
0000000337,   33.0000000 ,   1.00000000 ,   1.00000000 ,   10.3579078 ,   100.003611 ,  -15.0000000 ,  -15.0000000 ,  -15.0000000
0000000338,   34.0000000 ,   1.00000000 ,   1.00000000 ,   10.3507696 ,   100.003539 ,  -15.0000000 ,  -15.0000000 ,  -15.0000000
0000000339,   35.0000000 ,   1.00000000 ,   1.00000000 ,   10.3437076 ,   100.003468 ,  -15.0000000 ,  -15.0000000 ,  -15.0000000
0000000340,   36.0000000 ,   1.00000000 ,   1.00000000 ,   10.3367209 ,   100.003397 ,  -15.0000000 ,  -15.0000000 ,  -15.0000000
0000000341,   37.0000000 ,   1.00000000 ,   1.00000000 ,   10.3298085 ,   100.003327 ,  -15.0000000 ,  -15.0000000 ,  -15.0000000
0000000342,   38.0000000 ,   1.00000000 ,   1.00000000 ,   10.3229695 ,   100.003259 ,  -15.0000000 ,  -15.0000000 ,  -15.0000000
0000000343,   39.0000000 ,   1.00000000 ,   1.00000000 ,   10.3162030 ,   100.003190 ,  -15.0000000 ,  -15.0000000 ,  -15.0000000
0000000344,   40.0000000 ,   1.00000000 ,   1.00000000 ,   10.3095084 ,   100.003123 ,  -15.0000000 ,  -15.0000000 ,  -15.0000000
0000000345,   41.0000000 ,   1.00000000 ,   1.00000000 ,   10.3028847 ,   100.003056 ,  -15.0000000 ,  -15.0000000 ,  -15.0000000
0000000346,   42.0000000 ,   1.00000000 ,   1.00000000 ,   10.2963312 ,   100.002990 ,  -15.0000000 ,  -15.0000000 ,  -15.0000000
0000000347,   43.0000000 ,   1.00000000 ,   1.00000000 ,   10.2898471 ,   100.002924 ,  -15.0000000 ,  -15.0000000 ,  -15.0000000
0000000348,   44.0000000 ,   1.00000000 ,   1.00000000 ,   10.2834317 ,   100.002860 ,  -15.0000000 ,  -15.0000000 ,  -15.0000000
0000000349,   45.0000000 ,   1.00000000 ,   1.00000000 ,   10.2770840 ,   100.002796 ,  -15.0000000 ,  -15.0000000 ,  -15.0000000
0000000350,   46.0000000 ,   1.00000000 ,   1.00000000 ,   10.2708028 ,   100.002732 ,  -15.0000000 ,  -15.0000000 ,  -15.0000000
0000000351,   47.0000000 ,   1.00000000 ,   1.00000000 ,   10.2645872 ,   100.002670 ,  -15.0000000 ,  -15.0000000 ,  -15.0000000
0000000352,   48.0000000 ,   1.00000000 ,   1.00000000 ,   10.2584358 ,   100.002608 ,  -15.0000000 ,  -15.0000000 ,  -15.0000000
0000000353,   49.0000000 ,   1.00000000 ,   1.00000000 ,   10.2523476 ,   100.002546 ,  -15.0000000 ,  -15.0000000 ,  -15.0000000
0000000354,   50.0000000 ,   1.00000000 ,   1.00000000 ,   10.2463218 ,   100.002486 ,  -15.0000000 ,  -15.0000000 ,  -15.0000000
0000000355,   51.0000000 ,   1.00000000 ,   1.00000000 ,   10.2403576 ,   100.002425 ,  -15.0000000 ,  -15.0000000 ,  -15.0000000
0000000356,   52.0000000 ,   1.00000000 ,   1.00000000 ,   10.2344540 ,   100.002366 ,  -15.0000000 ,  -15.0000000 ,  -15.0000000
0000000357,   53.0000000 ,   1.00000000 ,   1.00000000 ,   10.2286103 ,   100.002307 ,  -15.0000000 ,  -15.0000000 ,  -15.0000000
0000000358,   54.0000000 ,   1.00000000 ,   1.00000000 ,   10.2228254 ,   100.002249 ,  -15.0000000 ,  -15.0000000 ,  -15.0000000
0000000359,   55.0000000 ,   1.00000000 ,   1.00000000 ,   10.2170983 ,   100.002191 ,  -15.0000000 ,  -15.0000000 ,  -15.0000000
0000000360,   56.0000000 ,   1.00000000 ,   1.00000000 ,   10.2114278 ,   100.002134 ,  -15.0000000 ,  -15.0000000 ,  -15.0000000
0000000361,   57.0000000 ,   1.00000000 ,   1.00000000 ,   10.2058128 ,   100.002077 ,  -15.0000000 ,  -15.0000000 ,  -15.0000000
0000000362,   58.0000000 ,   1.00000000 ,   1.00000000 ,   10.2002521 ,   100.002021 ,  -15.0000000 ,  -15.0000000 ,  -15.0000000
0000000363,   59.0000000 ,   1.00000000 ,   1.00000000 ,   10.1947447 ,   100.001965 ,  -15.0000000 ,  -15.0000000 ,  -15.0000000
0000000364,   60.0000000 ,   1.00000000 ,   1.00000000 ,   10.1892893 ,   100.001910 ,  -15.0000000 ,  -15.0000000 ,  -15.0000000
0000000365,   61.0000000 ,   1.00000000 ,   1.00000000 ,   10.1838848 ,   100.001856 ,  -15.0000000 ,  -15.0000000 ,  -15.0000000
0000000366,   62.0000000 ,   1.00000000 ,   1.00000000 ,   10.1785302 ,   100.001802 ,  -15.0000000 ,  -15.0000000 ,  -15.0000000
0000000367,   63.0000000 ,   1.00000000 ,   1.00000000 ,   10.1732245 ,   100.001748 ,  -15.0000000 ,  -15.0000000 ,  -15.0000000
0000000368,   64.0000000 ,   1.00000000 ,   1.00000000 ,   10.1679664 ,   100.001695 ,  -15.0000000 ,  -15.0000000 ,  -15.0000000
0000000369,   65.0000000 ,   1.00000000 ,   1.00000000 ,   10.1627548 ,   100.001643 ,  -15.0000000 ,  -15.0000000 ,  -15.0000000
0000000370,   66.0000000 ,   1.00000000 ,   1.00000000 ,   10.1575886 ,   100.001590 ,  -15.0000000 ,  -15.0000000 ,  -15.0000000
0000000371,   67.0000000 ,   1.00000000 ,   1.00000000 ,   10.1524666 ,   100.001539 ,  -15.0000000 ,  -15.0000000 ,  -15.0000000
0000000372,   68.0000000 ,   1.00000000 ,   1.00000000 ,   10.1473875 ,   100.001487 ,  -15.0000000 ,  -15.0000000 ,  -15.0000000
0000000373,   69.0000000 ,   1.00000000 ,   1.00000000 ,   10.1423501 ,   100.001437 ,  -15.0000000 ,  -15.0000000 ,  -15.0000000
0000000374,   70.0000000 ,   1.00000000 ,   1.00000000 ,   10.1373531 ,   100.001386 ,  -15.0000000 ,  -15.0000000 ,  -15.0000000
0000000375,   71.0000000 ,   1.00000000 ,   1.00000000 ,   10.1323954 ,   100.001336 ,  -15.0000000 ,  -15.0000000 ,  -15.0000000
0000000376,   72.0000000 ,   1.00000000 ,   1.00000000 ,   10.1274755 ,   100.001287 ,  -15.0000000 ,  -15.0000000 ,  -15.0000000
0000000377,   73.0000000 ,   1.00000000 ,   1.00000000 ,   10.1225923 ,   100.001237 ,  -15.0000000 ,  -15.0000000 ,  -15.0000000
0000000378,   74.0000000 ,   1.00000000 ,   1.00000000 ,   10.1177445 ,   100.001188 ,  -15.0000000 ,  -15.0000000 ,  -15.0000000
0000000379,   75.0000000 ,   1.00000000 ,   1.00000000 ,   10.1129309 ,   100.001140 ,  -15.0000000 ,  -15.0000000 ,  -15.0000000
0000000380,   76.0000000 ,   1.00000000 ,   1.00000000 ,   10.1081502 ,   100.001092 ,  -15.0000000 ,  -15.0000000 ,  -15.0000000
0000000381,   77.0000000 ,   1.00000000 ,   1.00000000 ,   10.1034012 ,   100.001044 ,  -15.0000000 ,  -15.0000000 ,  -15.0000000
0000000382,   78.0000000 ,   1.00000000 ,   1.00000000 ,   10.0986829 ,   100.000996 ,  -15.0000000 ,  -15.0000000 ,  -15.0000000
0000000383,   79.0000000 ,   1.00000000 ,   1.00000000 ,   10.0939940 ,   100.000949 ,  -15.0000000 ,  -15.0000000 ,  -15.0000000
0000000384,   80.0000000 ,   1.00000000 ,   1.00000000 ,   10.0893333 ,   100.000902 ,  -15.0000000 ,  -15.0000000 ,  -15.0000000
0000000385,   81.0000000 ,   1.00000000 ,   1.00000000 ,   10.0846996 ,   100.000855 ,  -15.0000000 ,  -15.0000000 ,  -15.0000000
0000000386,   82.0000000 ,   1.00000000 ,   1.00000000 ,   10.0800915 ,   100.000809 ,  -15.0000000 ,  -15.0000000 ,  -15.0000000
0000000387,   83.0000000 ,   1.00000000 ,   1.00000000 ,   10.0755077 ,   100.000762 ,  -15.0000000 ,  -15.0000000 ,  -15.0000000
0000000388,   84.0000000 ,   1.00000000 ,   1.00000000 ,   10.0709470 ,   100.000716 ,  -15.0000000 ,  -15.0000000 ,  -15.0000000
0000000389,   85.0000000 ,   1.00000000 ,   1.00000000 ,   10.0664080 ,   100.000670 ,  -15.0000000 ,  -15.0000000 ,  -15.0000000
0000000390,   86.0000000 ,   1.00000000 ,   1.00000000 ,   10.0618893 ,   100.000625 ,  -15.0000000 ,  -15.0000000 ,  -15.0000000
0000000391,   87.0000000 ,   1.00000000 ,   1.00000000 ,   10.0573896 ,   100.000579 ,  -15.0000000 ,  -15.0000000 ,  -15.0000000
0000000392,   88.0000000 ,   1.00000000 ,   1.00000000 ,   10.0529075 ,   100.000534 ,  -15.0000000 ,  -15.0000000 ,  -15.0000000
0000000393,   89.0000000 ,   1.00000000 ,   1.00000000 ,   10.0484417 ,   100.000489 ,  -15.0000000 ,  -15.0000000 ,  -15.0000000
0000000394,   90.0000000 ,   1.00000000 ,   1.00000000 ,   10.0439907 ,   100.000444 ,  -15.0000000 ,  -15.0000000 ,  -15.0000000
0000000395,   91.0000000 ,   1.00000000 ,   1.00000000 ,   10.0395532 ,   100.000399 ,  -15.0000000 ,  -15.0000000 ,  -15.0000000
0000000396,   92.0000000 ,   1.00000000 ,   1.00000000 ,   10.0351278 ,   100.000355 ,  -15.0000000 ,  -15.0000000 ,  -15.0000000
0000000397,   93.0000000 ,   1.00000000 ,   1.00000000 ,   10.0307132 ,   100.000310 ,  -15.0000000 ,  -15.0000000 ,  -15.0000000
0000000398,   94.0000000 ,   1.00000000 ,   1.00000000 ,   10.0263080 ,   100.000266 ,  -15.0000000 ,  -15.0000000 ,  -15.0000000
0000000399,   95.0000000 ,   1.00000000 ,   1.00000000 ,   10.0219109 ,   100.000221 ,  -15.0000000 ,  -15.0000000 ,  -15.0000000
0000000400,   96.0000000 ,   1.00000000 ,   1.00000000 ,   10.0175206 ,   100.000177 ,  -15.0000000 ,  -15.0000000 ,  -15.0000000
0000000401,   97.0000000 ,   1.00000000 ,   1.00000000 ,   10.0131356 ,   100.000133 ,  -15.0000000 ,  -15.0000000 ,  -15.0000000
0000000402,   98.0000000 ,   1.00000000 ,   1.00000000 ,   10.0087548 ,   100.000089 ,  -15.0000000 ,  -15.0000000 ,  -15.0000000
0000000403,   99.0000000 ,   1.00000000 ,   1.00000000 ,   10.0043767 ,   100.000045 ,  -15.0000000 ,  -15.0000000 ,  -15.0000000
0000000404,   100.000000 ,   1.00000000 ,   1.00000000 ,   10.0000000 ,   100.000003 ,  -15.0000000 ,  -15.0000000 ,  -15.0000000
